,Obligor Name,Security Name,Purchase Date (Date Loan contributed to the facility),Total Commitment (Issue Currency),Outstanding Principal Balance (Issue Currency),Defaulted Collateral Loan / Material Mod (Y/N),Date of Default,Credit Improved Loan (Y/N),Purchase Price,Market Value,Stretch Senior Loan (Y/N),Lien Type (First Lien / Split First Lien / Split Lien / Second Lien),Loan Type (Term / Delayed Draw / Revolver),Current Moody's Rating,Current S&P Rating,Initial Fixed Charge Coverage Ratio,Current Fixed Charge Coverage Ratio,Current Interest Coverage Ratio,Debt to Capitalization Ratio,Initial Senior Debt/EBITDA,Initial Total Debt/EBITDA,Current Senior Debt/EBITDA,Current Total Debt/EBITDA,Initial TTM EBITDA,Current TTM EBITDA,Current As of Date For Leverage and EBITDA,Maturity Date,Fixed Rate (Y/N),Coupon (if Fixed),Floor Obligation (Y/N),Floor,Spread,Base Rate,"For Revolvers/Delayed Draw, commitment or other unused fee",PIK Floating Rate,PIK Fixed Rate,Interest Paid,Obligor Industry,Currency (USD / CAD / AUD / EUR),Obligor Country,DIP Loan (Y/N),Partial PIK Loan (Y/N),Warrants to Purchase Equity (Y/N),LBO Loan (Y/N),Parti-cipation (Y/N),Convertible to Equity (Y/N),Equity Security (Y/N),At Acquisition - Subject to offer or called for redemption (Y/N),Margin Stock (Y/N),Subject to withholding tax (Y/N),At Acquisition - Defaulted Collateral Loan,Non-Cash PIK (Y/N),Zero Coupon Obligation (Y/N),Covenant Lite (Y/N),Eligible Covenant Lite (Y/N),"Structured Finance Obligation, finance lease or chattel paper (Y/N)",Material Non-Credit Related Risk (Y/N),"Primarily Secured by Real Estate, Construction Loan or Project Finance Loan (Y/N)",Interest Only Security (Y/N),Satisfies all Other Eligibility Criteria (Y/N),Excess Concentration Amount (HARD CODE on Last Day of Reinvestment Period),Obligor,Convertible to Equity,Equity Security,Subject to Offer or Redemption,Margin Stock,Subject to withholding tax,Non-Cash PIK,Zero Coupon Obligation,Covenant Lite,Structured Finance Obligation,Interest Paid Semi Annually,Material Non-Credit Related Risk,Interest Only Security,Satisfies all Other Eligibility Criteria,Foreign Currency Variability Factor,Loan Number,Tier 1 / Tier 2 Obligor,Advance Rate,Eligible Currency,Eligible Country,Subject to offer or called for redemption,Non-cash PIK,Rem. Term to Maturity,Remaining term > 7 yrs,"Real Estate, Construction or Project Finance Loan",EBITDA Requirement at Acquisition,EBITDA Requirement Ongoing,Leverage - Final Haircut - 50%,Leverage 35% Haircut,Leverage 20% Haircut,Leverage 10% Haircut,Discount Collateral Loan (Y/N),Exchange Rate,Purchased Below 85% of Par,Total Commitment USD,Eligible Commitment (USD),Outstanding Principal Balance (USD),Eligible Outstanding Principal Balance (USD),Lookups'!F2:F3 No,Outstanding Principal Balance,Months Since Default,Applicable Recovery Rate,Defaulted Collateral Loan Balance,Discount Loan Balance,Credit Improved Balance,Initial Haircut Level,Haircut Intangible
0,"ACP Avenu Buyer, LLC",Avenu (TL),,3895643.94,3895643.94,No,,No,0.9868394,0.974999997047985,Yes,First Lien,Term,NR, NR,1.1174448260122,1.10965147237438,1.69133679973163,0.459076600209864,5.18702946232734,5.18702946232734,4.98020329738441,4.98020329738441,33738000.0,40335000.0,2024-04-30,2029-10-02,No,0,Yes,0.01,0.0625,0.0531217,0.0,0.0,0.0,Quarterly,IT Services,USD,United States,No,No,No,No,No,No,No,No,No,No,0,No,No,No,No,No,No,No,No,Yes,0,1,0,0,0,0,0,0,0,0,0,0,0,0,0,0.0,1,Tier 2,0.6536420000000004,0,0,0,0,5.344444444444444,0,0,0,0,0,0,0,0,No,1.0,0,3895643.94,3895643.94,3895643.94,3895643.94,41,3895643.94,0.0,0.5,,,,No Initial Haircut,
1,"Aeronix, Inc.",Aeronix (TL),,6995000.0,6995000.0,No,,No,0.985637884203002,0.99,No,First Lien,Term,NR, NR,2.1979560962055,5.30574608077321,6.84220752968103,0.732127476313523,2.70755124414471,2.70755124414471,2.20007495852792,2.20007495852792,30101000.0,35219475.0,2024-01-31,2028-12-18,No,0,Yes,0.01,0.055,0.053249,0.0,0.0,0.0,Quarterly,Aerospace & Defense,USD,United States,No,No,No,No,No,No,No,No,No,No,0,No,No,No,No,No,No,No,No,Yes,0,2,0,0,0,0,0,0,0,0,0,0,0,0,0,0.0,2,Tier 2,0.7,0,0,0,0,4.544444444444444,0,0,0,0,0,0,0,0,No,1.0,0,6995000.0,6995000.0,6995000.0,6995000.0,1,6995000.0,0.0,0.5,,,,No Initial Haircut,
2,AFC Dell Holding Corp.,AFC Industries (TL),,5414405.04,5414405.04,No,,No,1.0,0.989999937278427,No,First Lien,Term,NR, NR,,1.49705138406281,1.65431927144118,0.529029511937098,5.09872103549858,5.09872103549858,5.33673211361987,5.33673211361987,67681000.0,69715452.0217765,2024-04-30,2027-04-09,No,0,Yes,0.01,0.0625,0.054292,0.0,0.0,0.0,Quarterly,Distributors,USD,United States,No,No,No,No,No,No,No,No,No,No,0,No,No,No,No,No,No,No,No,Yes,0,3,0,0,0,0,0,0,0,0,0,0,0,0,0,0.0,3,Tier 1,0.7,0,0,0,0,2.825,0,0,0,0,0,0,0,0,No,1.0,0,5414405.04,5414405.04,5414405.04,5414405.04,18,5414405.04,0.0,0.5,,,,No Initial Haircut,
3,Arcfield Acquisition Corp.,Arcfield (Term Loan),,494646.98,494646.98,No,,No,0.985,0.989999999595671,Yes,First Lien,Term,NR, NR,2.68,2.01031735394211,2.48319611820387,0.427549381953616,3.76,3.76,4.67899159663866,4.67899159663866,35900000.0,59500000.0,2023-09-30,2029-08-03,No,0,Yes,0.01,0.0625,0.053228,0.0,0.0,0.0,Quarterly,Aerospace & Defense,USD,United States,No,No,No,No,No,No,No,No,No,No,0,No,No,No,No,No,No,No,No,Yes,0,4,0,0,0,0,0,0,0,0,0,0,0,0,0,0.0,4,Tier 2,0.7,0,0,0,0,5.177777777777778,0,0,0,0,0,0,0,0,No,1.0,0,494646.98,494646.98,494646.98,494646.98,1,494646.98,0.0,0.5,,,,No Initial Haircut,
4,"Beta Plus Technologies, Inc.",Beta+ (TL),,8000000.0,8000000.0,No,,No,0.975,0.97250005125,Yes,First Lien,Term,NR, NR,1.80337078651685,0.881516587677725,1.69824187150202,0.588235294117647,5.18518518518519,5.18518518518519,5.41429609817717,5.41429609817717,135000000.0,141703000.0,2024-03-31,2029-07-01,No,0,Yes,0.01,0.0575,0.053019,0.0,0.0,0.0,Quarterly,Software,USD,United States,No,No,No,No,No,No,No,No,No,No,0,No,No,No,No,No,No,No,No,Yes,0,5,0,0,0,0,0,0,0,0,0,0,0,0,0,0.0,5,Tier 1,0.6537499999999997,0,0,0,0,5.086111111111111,0,0,0,0,0,0,0,0,No,1.0,0,8000000.0,8000000.0,8000000.0,8000000.0,59,8000000.0,0.0,0.5,,,,No Initial Haircut,
5,"Big Top Holdings, LLC",Big Top Manufacturing (Term Loan),,24028571.43,24028571.43,No,,No,0.982531402259225,0.98250000000104,No,First Lien,Term,NR, NR,1.58,1.54798874727273,2.12117199539474,0.481893211380712,3.75384187591463,3.75384187591463,3.63015338783511,3.63015338783511,32800000.0,32241814.33,2024-03-31,2030-02-28,No,0,Yes,0.01,0.0625,0.053094,0.0,0.0,0.0,Quarterly,Construction & Engineering,USD,United States,No,No,No,No,No,No,No,No,No,No,0,No,No,No,No,No,No,No,No,Yes,0,6,0,0,0,0,0,0,0,0,0,0,0,0,0,0.0,6,Tier 2,0.7,0,0,0,0,5.758333333333334,0,0,0,0,0,0,0,0,No,1.0,0,24028571.43,24028571.43,24028571.43,24028571.43,14,24028571.43,0.0,0.5,,,,No Initial Haircut,
6,"BlueHalo Financing Holdings, LLC",BlueHalo (Term Loan),,1647080.24,1647080.24,No,,No,0.9869639,0.984999698618205,Yes,First Lien,Term,NR, NR,1.58847736625514,0.960051288684326,1.69412083494006,0.490856192851205,4.67556118611188,4.67556118611188,3.99290700943589,4.0470445266587,25259000.0,120064612.0,2024-03-31,2025-10-31,No,0,Yes,0.01,0.0475,0.0531,0.0,0.0,0.0,Quarterly,Aerospace & Defense,USD,United States,No,No,No,No,No,No,No,No,No,No,0,No,No,No,No,No,No,No,No,Yes,0,7,0,0,0,0,0,0,0,0,0,0,0,0,0,0.0,7,Tier 2,0.6868579593564775,0,0,0,0,1.3666666666666667,0,0,0,0,0,0,0,0,No,1.0,0,1647080.24,1647080.24,1647080.24,1647080.24,1,1647080.24,0.0,0.5,,,,No Initial Haircut,
7,"By Light Professional IT Services, LLC",By Light (Term Loan),,12600322.44,12600322.44,No,,No,0.994303426621279,0.989999984778168,Yes,First Lien,Term,NR, NR,1.99,1.14077172135296,1.38566010349288,0.524705184233545,5.44016024348223,5.77175702656899,5.2739329379474,5.36228536269355,60314216.0,90546468.0,2024-04-30,2025-05-16,No,0,Yes,0.01,0.06875,0.05495,0.0,0.0,0.0,Quarterly,IT Services,USD,United States,No,No,No,No,No,No,No,No,No,No,0,No,No,No,No,No,No,No,No,Yes,0,8,0,0,0,0,0,0,0,0,0,0,0,0,0,0.0,8,Tier 1,0.6395135307617056,0,0,0,0,0.9,0,0,0,0,0,0,0,0,No,1.0,0,12600322.44,12600322.44,12600322.44,12600322.44,41,12600322.44,0.0,0.5,,,,No Initial Haircut,
8,"By Light Professional IT Services, LLC",By Light (Revolver),,2164811.79,2164811.79,No,,No,1.0,0.99,Yes,First Lien,Revolver,NR, NR,1.99,1.14077172135296,1.38566010349288,0.524705184233545,5.44016024348223,5.77175702656899,5.2739329379474,5.36228536269355,60314216.0,90546468.0,2024-04-30,2025-05-16,No,0,Yes,0.01,0.0,0.0,0.0,0.0,0.0,Quarterly,IT Services,USD,United States,No,No,No,No,No,No,No,No,No,No,0,No,No,No,No,No,No,No,No,Yes,0,8,0,0,0,0,0,0,0,0,0,0,0,0,0,0.0,9,Tier 1,0.6395135307617056,0,0,0,0,0.9,0,0,0,0,0,0,0,0,No,1.0,0,2164811.79,2164811.79,2164811.79,2164811.79,41,2164811.79,0.0,0.5,,,,No Initial Haircut,
9,"Carnegie Dartlet, LLC",Carnegie Dartlet (Term Loan),,23000000.0,23000000.0,No,,No,0.985,0.985,No,First Lien,Term,NR, NR,1.55508174204806,1.55508174204806,2.16381151275908,0.311769113408175,4.10496639557436,4.10496639557436,4.10496639557436,4.10496639557436,20199678.1482539,20199678.1482539,2023-10-31,2030-02-07,No,0,Yes,0.01,0.055,0.0533,0.0,0.0,0.0,Monthly,Professional Services,USD,United States,No,No,No,No,No,No,No,No,No,No,0,No,No,No,No,No,No,No,No,Yes,0,9,0,0,0,0,0,0,0,0,0,0,0,0,0,0.0,10,Tier 2,0.7,0,0,0,0,5.7,0,0,0,0,0,0,0,0,No,1.0,0,23000000.0,23000000.0,23000000.0,23000000.0,55,23000000.0,0.0,0.5,,,,No Initial Haircut,
10,"Cartessa Aesthetics, LLC",Cartessa (TL),,1121138.22,1121138.22,No,,No,0.98,1.0,Yes,First Lien,Term,NR, NR,2.94,2.79052104617096,3.11651716969303,0.222,2.99,2.99,2.22641482366136,2.22641482366136,22800000.0,26075400.7505924,2024-03-31,2028-06-14,No,0,Yes,0.01,0.0575,0.0531,0.0,0.0,0.0,Monthly,Distributors,USD,United States,No,No,No,No,No,No,No,No,No,No,0,No,No,No,No,No,No,No,No,Yes,0,10,0,0,0,0,0,0,0,0,0,0,0,0,0,0.0,11,Tier 2,0.7,0,0,0,0,4.025,0,0,0,0,0,0,0,0,No,1.0,0,1121138.22,1121138.22,1121138.22,1121138.22,18,1121138.22,0.0,0.5,,,,No Initial Haircut,
11,"Compex Legal Services, Inc. ",Compex (TL),,1896748.07,1896748.07,No,,No,0.987446482053125,1.0,Yes,First Lien,Term,NR, NR,1.65805748106936,1.75763466723779,2.27250380428421,0.411009579227726,4.95694615293044,4.95694615293044,4.26429380859174,4.26429380859174,12600500.0,19414000.0,2024-03-31,2026-02-09,No,0,Yes,0.01,0.0555,0.0559470979522579,0.0,0.0,0.0,Monthly,Professional Services,USD,United States,No,No,No,No,No,No,No,No,No,No,0,No,No,No,No,No,No,No,No,Yes,0,11,0,0,0,0,0,0,0,0,0,0,0,0,0,0.0,12,Tier 2,0.6677359510086454,0,0,0,0,1.6472222222222221,0,0,0,0,0,0,0,0,No,1.0,0,1896748.07,1896748.07,1896748.07,1896748.07,55,1896748.07,0.0,0.5,,,,No Initial Haircut,
12,DRI Holding Inc.,Digital Room,,5154430.38,5154430.38,No,,No,0.96875,0.951250000198858,No,First Lien,Term,B2, B-,1.983,1.43529674881712,1.55562727588618,0.508,4.43,6.25,3.6477049583685,5.21031025517751,76752349.0145747,95993531.0,2024-03-31,2028-12-21,No,0,Yes,0.01,0.0525,0.0543,0.0,0.0,0.0,Monthly,Commercial Services & Supplies,USD,United States,No,No,No,No,No,No,No,No,No,No,0,No,No,No,No,No,No,No,No,Yes,0,12,0,0,0,0,0,0,0,0,0,0,0,0,0,0.0,13,Tier 1,0.7,0,0,0,0,4.552777777777778,0,0,0,0,0,0,0,0,No,1.0,0,5154430.38,5154430.38,5154430.38,5154430.38,12,5154430.38,0.0,0.5,,,,No Initial Haircut,
13,"DRS Holdings III, Inc.",Dr. Scholl's (Term Loan),,11490437.58,11490437.58,No,,No,0.99,0.991999981786595,Yes,First Lien,Term,NR, NR,2.8950303030303,1.26799247361184,1.54526028218978,0.460251046025105,3.81139815944118,3.81139815944118,5.20455373737162,5.20455373737162,72152000.0,114308261.0,2024-03-31,2025-11-03,No,0,Yes,0.01,0.064,0.0531,0.0,0.0,0.0,Quarterly,Personal Products,USD,United States,No,No,No,No,No,No,No,No,No,No,0,No,No,No,No,No,No,No,No,Yes,0,13,0,0,0,0,0,0,0,0,0,0,0,0,0,0.0,14,Tier 1,0.7,0,0,0,0,1.375,0,0,0,0,0,0,0,0,No,1.0,0,11490437.58,11490437.58,11490437.58,11490437.58,53,11490437.58,0.0,0.5,,,,No Initial Haircut,
14,"EDS Buyer, LLC",Epiq (TL),,3976700.0,3976700.0,No,,No,0.9851901,0.98,No,First Lien,Term,NR, NR,2.10809669587248,2.71714050117843,3.6079495314604,0.208,3.63044566850275,3.63044566850275,4.29627140450456,4.29627140450456,11982000.0,22228577.0633275,2024-02-29,2029-01-10,No,0,Yes,0.01,0.0575,0.053,0.0,0.0,0.0,Quarterly,"Electronic Equipment, Instruments & Components",USD,United States,No,No,No,No,No,No,No,No,No,No,0,No,No,No,No,No,No,No,No,Yes,0,14,0,0,0,0,0,0,0,0,0,0,0,0,0,0.0,15,Tier 2,0.7,0,0,0,0,4.608333333333333,0,0,0,0,0,0,0,0,No,1.0,0,3976700.0,3976700.0,3976700.0,3976700.0,24,3976700.0,0.0,0.5,,,,No Initial Haircut,
15,"Efficient Collaborative Retail Marketing Company, LLC",ECRM,,7531513.18210001,7531513.18210001,No,,No,0.995,0.700000012602553,Yes,First Lien,Term,NR, NR,2.37,0.365778990732127,0.427357542253946,0.430309734513274,5.44022202335825,5.44022202335825,16.035638047392,16.035638047392,14300000.0,7623650.0,2024-04-30,2024-06-15,No,0,Yes,0.01,0.0926161,0.0517839,0.0,0.0,0.015,Quarterly,Media,USD,United States,No,Yes,No,No,No,No,No,No,No,No,0,No,No,No,No,No,No,No,No,Yes,0,15,0,0,0,0,0,0,0,0,0,0,0,0,0,0.0,16,Tier 2,0.6395102430080146,0,0,0,0,-0.030555555555555555,0,0,0,0,1,0,0,0,No,1.0,0,7531513.18210001,7531513.18210001,7531513.18210001,7531513.18210001,46,7531513.18210001,0.0,0.5,,,,No Initial Haircut,3765756.591050005
16,"Eval Home Health Solutions Intermediate, LLC",EvAl (Term Loan),,13000000.0,13000000.0,No,,No,0.985,0.985,No,First Lien,Term,NR, NR,2.14434485757554,2.14434485757554,2.3603291715744,0.530683490127993,3.49806153221327,3.49806153221327,3.49806153221327,3.49806153221327,15029396.0,15029396.0,2024-03-31,2030-05-10,No,0,Yes,0.01,0.0575,0.0533,0.0,0.0,0.0,Quarterly,Health Care Providers & Services,USD,United States,No,No,No,No,No,No,No,No,No,No,0,No,No,No,No,No,No,No,No,Yes,0,16,0,0,0,0,0,0,0,0,0,0,0,0,0,0.0,17,Tier 2,0.7,0,0,0,0,5.955555555555556,0,0,0,0,0,0,0,0,No,1.0,0,13000000.0,13000000.0,13000000.0,13000000.0,31,13000000.0,0.0,0.5,,,,No Initial Haircut,
17,Fairbanks Morse Defense,Fairbanks Morse Defense (Term Loan),,997442.46,997442.46,No,,No,0.995,1.00553999876845,No,First Lien,Term,B3, B-,1.72765641747723,1.43987437045644,1.67939613221673,0.61210441781245,4.86623012160898,6.41,4.85081635437511,5.34374621005397,106900000.0,263856000.0,2024-03-31,2028-06-23,No,0,Yes,0.01,0.0501161,0.0530839,0.0,0.0,0.0,Quarterly,Aerospace & Defense,USD,United States,No,No,No,No,No,No,No,No,No,No,0,No,No,No,No,No,No,No,No,Yes,0,17,0,0,0,0,0,0,0,0,0,0,0,0,0,0.0,18,Tier 1,0.7,0,0,0,0,4.05,0,0,0,0,0,0,0,0,No,1.0,0,997442.46,997442.46,997442.46,997442.46,1,997442.46,0.0,0.5,,,,No Initial Haircut,
18,"HW Holdco, LLC",Hanley Wood (TL),,1513725.62,1513725.62,No,,No,0.985,0.985000016053107,Yes,First Lien,Term,NR, NR,1.48872180451128,1.59858195523115,1.96657245352756,0.346056865292325,3.31372899369193,3.31372899369193,3.6488212044996,3.6488212044996,19615363.8766885,36181000.0,2024-02-29,2026-05-10,No,0,Yes,0.01,0.064,0.0528,0.0,0.0,0.0,Quarterly,Media,USD,United States,No,No,No,No,No,No,No,No,No,No,0,No,No,No,No,No,No,No,No,Yes,0,18,0,0,0,0,0,0,0,0,0,0,0,0,0,0.0,19,Tier 2,0.7,0,0,0,0,1.8972222222222221,0,0,0,0,0,0,0,0,No,1.0,0,1513725.62,1513725.62,1513725.62,1513725.62,46,1513725.62,0.0,0.5,,,,No Initial Haircut,
19,"MOREGroup Holdings, Inc.",MOREgroup (Term Loan),,25000000.0,25000000.0,No,,No,0.985,0.99,No,First Lien,Term,NR, NR,1.45122611972678,1.91443060600232,3.93773420200855,0.4863280657945,4.40132009938523,4.40132009938523,4.42937571025252,4.42937571025252,50913000.0,49482707.9564909,2024-03-31,2030-01-16,No,0,Yes,0.01,0.059,0.0516,0.0,0.0,0.0,Quarterly,Construction & Engineering,USD,United States,No,No,No,No,No,No,No,No,No,No,0,No,No,No,No,No,No,No,No,Yes,0,19,0,0,0,0,0,0,0,0,0,0,0,0,0,0.0,20,Tier 1,0.7,0,0,0,0,5.638888888888889,0,0,0,0,0,0,0,0,No,1.0,0,25000000.0,25000000.0,25000000.0,25000000.0,14,25000000.0,0.0,0.5,,,,No Initial Haircut,
20,"Infinity Home Services Holdco, Inc.",Infinity Home Services (DDTL) USD,,525293.94,525293.94,No,,No,1.0,0.980000003482574,Yes,First Lien,Delayed Draw,NR, NR,1.5519163814925,1.44644773062021,1.92655331539829,0.250777134171395,3.92379073120523,3.92379073120523,4.24438373167321,4.24438373167321,35462000.0,46902451.0,2024-04-30,2028-12-28,No,0,No,,0.06,0.0536,0.0,0.0,0.0,Quarterly,Professional Services,USD,United States,No,No,No,No,No,No,No,No,No,No,0,No,No,No,No,No,No,No,No,Yes,0,20,0,0,0,0,0,0,0,0,0,0,0,0,0,0.0,21,Tier 2,0.7,0,0,0,0,4.572222222222222,0,0,0,0,0,0,0,0,No,1.0,0,525293.94,525293.94,525293.94,525293.94,55,525293.94,0.0,0.5,,,,No Initial Haircut,
21,"Infinity Home Services Holdco, Inc.",Infinity Home Services (DDTL) CAD,,1675333.25,1675333.25,No,,No,1.0,0.987692481562935,Yes,First Lien,Delayed Draw,NR, NR,1.5519163814925,1.44644773062021,1.92655331539829,0.250777134171395,3.92379073120523,3.92379073120523,4.24438373167321,4.24438373167321,35462000.0,46902451.0,2024-04-30,2028-12-28,No,0,No,,0.06,0.0536,0.0,0.0,0.0,Quarterly,Professional Services,CAD,United States,No,No,No,No,No,No,No,No,No,No,0,No,No,No,No,No,No,No,No,Yes,0,20,0,0,0,0,0,0,0,0,0,0,0,0,0,0.38,22,Tier 2,0.7,0,0,0,0,4.572222222222222,0,0,0,0,0,0,0,0,No,0.7338,0,1229359.5388500001,1229359.5388500001,1229359.5388500001,1229359.5388500001,55,1229359.5388500001,0.0,0.5,,,,No Initial Haircut,
22,"Infinity Home Services Holdco, Inc.",Infinity Home Services (DDTL),,5499639.98,0.0,No,,No,1.0,0.992500000079048,Yes,First Lien,Delayed Draw,NR, NR,1.5519163814925,1.44644773062021,1.92655331539829,0.250777134171395,3.92379073120523,3.92379073120523,4.24438373167321,4.24438373167321,35462000.0,46902451.0,2024-04-30,2025-11-17,No,0,No,,0.0,0.0,0.0,0.0,0.0,Quarterly,Professional Services,USD,United States,No,No,No,No,No,No,No,No,No,No,0,No,No,No,No,No,No,No,No,Yes,0,20,0,0,0,0,0,0,0,0,0,0,0,0,0,0.0,23,Tier 2,0.7,0,0,0,0,1.413888888888889,0,0,0,0,0,0,0,0,No,1.0,0,5499639.98,5499639.98,0.0,0.0,55,0.0,0.0,0.5,,,,No Initial Haircut,
23,"Integrative Nutrition, LLC ","Integrative Nutrition 
(Term Loan)",,10406610.4,10406610.4,Yes,2023-06-30,No,0.99,0.929999998470319,No,First Lien,Term,NR, NR,2.42,,0.236507471534954,0.413474401070169,2.35845433016521,3.36922047166458,15.0563505293311,27.6737065423014,14840228.0054108,1581216.37999999,2024-04-30,2025-01-31,No,0,Yes,0.01,0.0715,0.0531,0.0,0.0,0.0225,Quarterly,Diversified Consumer Services,USD,United States,No,Yes,No,No,No,No,No,No,No,No,0,No,No,No,No,No,No,No,No,Yes,0,21,0,0,0,0,0,0,0,0,0,0,0,0,0,0.0,24,Tier 2,0.7,0,0,0,0,0.6083333333333333,0,0,0,1,1,0,0,0,No,1.0,0,10406610.4,10406610.4,10406610.4,10406610.4,19,10406610.4,12.066666666666666,0.5,0,,,No Initial Haircut,
24,"Integrity Marketing Acquisition, LLC ",Integrity Marketing (TL),,18494446.95,18494446.95,No,,No,0.998954922221687,1.0,Yes,First Lien,Term,NR, NR,1.22303817227189,0.959848098834588,1.17133994762893,0.454391458344028,6.23,6.23,7.02316284237294,7.02316284237294,139500000.0,741662000.0,2024-03-31,2026-08-27,No,0,Yes,0.01,0.0615,0.0530297435976046,0.0,0.0,0.0,Quarterly,Insurance,USD,United States,No,No,No,No,No,No,No,No,No,No,0,No,No,No,No,No,No,No,No,Yes,0,22,0,0,0,0,0,0,0,0,0,0,0,0,0,0.0,25,Tier 1,0.6028089887640449,0,0,0,0,2.2,0,0,0,0,0,0,1,0,No,1.0,0,18494446.95,18494446.95,18494446.95,18494446.95,38,18494446.95,0.0,0.5,,,,0.8,14795557.56
25,"Keel Platform, LLC",Pegasus Steel (Term Loan),,3842105.26,3842105.26,No,,No,0.9853636,0.994999999036986,No,First Lien,Term,NR, NR,1.41761659272736,1.50075606557883,1.98964856745546,0.474506283662478,4.60364070809535,4.60364070809535,4.60364070809535,4.60364070809535,57411083.2618274,57411083.2618274,2023-12-31,2031-01-19,No,0,Yes,0.01,0.0525,0.053019,0.0,0.0,0.0,Quarterly,Metals & Mining,USD,United States,No,No,No,No,No,No,No,No,No,No,0,No,No,No,No,No,No,No,No,Yes,0,23,0,0,0,0,0,0,0,0,0,0,0,0,0,0.0,26,Tier 1,0.7,0,0,0,0,6.661111111111111,0,0,0,0,0,0,0,0,No,1.0,0,3842105.26,3842105.26,3842105.26,3842105.26,47,3842105.26,0.0,0.5,,,,No Initial Haircut,
26,"Keel Platform, LLC",Pegasus Steel (DDTL),,1578947.37,0.0,No,,No,0.985,1.0025000009975,No,First Lien,Delayed Draw,NR, NR,1.41761659272736,1.50075606557883,1.98964856745546,0.474506283662478,4.60364070809535,4.60364070809535,4.60364070809535,4.60364070809535,57411083.2618274,57411083.2618274,2023-12-31,2031-01-19,No,0,Yes,0.01,0.0,0.0,0.0,0.0,0.0,Quarterly,Metals & Mining,USD,United States,No,No,No,No,No,No,No,No,No,No,0,No,No,No,No,No,No,No,No,Yes,0,23,0,0,0,0,0,0,0,0,0,0,0,0,0,0.0,27,Tier 1,0.7,0,0,0,0,6.661111111111111,0,0,0,0,0,0,0,0,No,1.0,0,1578947.37,1578947.37,0.0,0.0,47,0.0,0.0,0.5,,,,No Initial Haircut,
27,"Kinetic Purchaser, LLC",KNS (Term Loan),,4787257.44,4787257.44,No,,No,0.98,1.0,No,First Lien,Term,NR, NR,1.8,1.2102363704602,1.59193646915089,0.4876,5.34106970170349,5.34106970170349,4.3848810437452,4.3848810437452,13443000.0,15636000.0,2024-04-30,2027-11-10,No,0,Yes,0.01,0.0615,0.0531,0.0,0.0,0.0,Quarterly,Personal Products,USD,United States,No,No,No,No,No,No,No,No,No,No,0,No,No,No,No,No,No,No,No,Yes,0,24,0,0,0,0,0,0,0,0,0,0,0,0,0,0.0,28,Tier 2,0.7,0,0,0,0,3.422222222222222,0,0,0,0,0,0,0,0,No,1.0,0,4787257.44,4787257.44,4787257.44,4787257.44,53,4787257.44,0.0,0.5,,,,No Initial Haircut,
28,"Lash OpCo, LLC",Lilly Lashes (TL),,5490353.35,5490353.35,No,,No,0.9775,0.990000188498229,No,First Lien,Term Loan,NR, NR,1.55779443237706,0.861764469788822,1.1216668071471,0.426884845929789,5.5235911027164,5.5235911027164,7.10377505198076,7.10377505198076,57462617.0,68080304.8268187,2024-04-30,2027-02-18,No,0,Yes,0.01,0.0775,0.0508,0.0,0.0,0.051,Quarterly,Personal Products,USD,United States,No,Yes,No,No,No,No,No,No,No,No,0,No,No,No,No,No,No,No,No,Yes,0,25,0,0,0,0,0,0,0,0,0,0,0,0,0,0.0,29,Tier 1,0.7,0,0,0,0,2.686111111111111,0,0,0,0,1,0,0,0,No,1.0,0,5490353.35,5490353.35,5490353.35,5490353.35,53,5490353.35,0.0,0.5,,,,No Initial Haircut,2745176.675
29,Lightspeed Buyer Inc.,Centauri Health (TL),,9244120.0,9244120.0,No,,No,0.983779451105801,1.0,Yes,First Lien,Term,NR, NR,1.91,2.02610940953339,2.3031112253278,0.404,4.80799595573333,4.80799595573333,3.40180020411484,3.40180020411484,28067827.2699206,67609000.0,2024-04-30,2026-02-03,No,0,Yes,0.01,0.0535,0.0533,0.0,0.0,0.0,Quarterly,Health Care Providers & Services,USD,United States,No,No,No,No,No,No,No,No,No,No,0,No,No,No,No,No,No,No,No,Yes,0,26,0,0,0,0,0,0,0,0,0,0,0,0,0,0.0,30,Tier 2,0.677579310486291,0,0,0,0,1.6305555555555555,0,0,0,0,0,0,0,0,No,1.0,0,9244120.0,9244120.0,9244120.0,9244120.0,31,9244120.0,0.0,0.5,,,,No Initial Haircut,
30,"System Planning and Analysis, Inc.",MCR (Term Loan),,8696745.81,8696745.81,No,,No,0.983383102278431,0.999000000668066,Yes,First Lien,Term,NR, NR,1.25,0.983858975916788,1.58051291824525,0.523861171366594,5.96296296296296,5.96296296296296,5.43177972048587,5.43177972048587,40500000.0,60450324.0,2024-04-30,2027-08-16,No,0,Yes,0.01,0.06,0.0511850142434704,0.0,0.0,0.0,Quarterly,Aerospace & Defense,USD,United States,No,No,No,No,No,No,No,No,No,No,0,No,No,No,No,No,No,No,No,Yes,0,27,0,0,0,0,0,0,0,0,0,0,0,0,0,0.0,31,Tier 2,0.6141304347826088,0,0,0,0,3.183333333333333,0,0,0,0,0,0,0,0,No,1.0,0,8696745.81,8696745.81,8696745.81,8696745.81,1,8696745.81,0.0,0.5,,,,No Initial Haircut,
31,"Loving Tan Intermediate II, Inc.",Loving Tan (TL),,7221365.71,7221365.71,No,,No,0.980465205729478,0.980000000581608,No,First Lien,Term,NR, NR,1.53,1.41924755089535,2.16505166760661,0.358,3.24817518248175,4.28467153284672,3.51210258584146,4.84283594743535,13700000.0,11795000.0,2024-04-30,2028-05-31,No,0,Yes,0.01,0.07,0.0531,0.0,0.0,0.0,Quarterly,Personal Products,USD,United States,No,No,No,No,No,No,No,No,No,No,0,No,No,No,No,No,No,No,No,Yes,0,28,0,0,0,0,0,0,0,0,0,0,0,0,0,0.0,32,Tier 2,0.7,0,0,0,0,3.986111111111111,0,0,0,0,0,0,0,0,No,1.0,0,7221365.71,7221365.71,7221365.71,7221365.71,53,7221365.71,0.0,0.5,,,,No Initial Haircut,
32,"Marketplace Events, LLC",Marketplace Events (USD Term Loan),,19445933.44,19445933.44,No,,No,0.7816244,1.0,Yes,First Lien,Term,NR, NR,2.41,0.731207124308236,1.03338047929894,0.590361445783133,3.45091291463531,4.68406462097314,5.01773875649525,5.01773875649525,10461000.0,16743000.0,2024-02-29,2026-09-30,No,0,Yes,0.01,0.055,0.0523,0.0,0.0,0.0,Quarterly,Media,USD,United States,No,No,No,No,No,No,No,No,No,No,0,No,No,No,No,No,No,No,No,Yes,0,29,0,0,0,0,0,0,0,0,0,0,0,0,0,0.0,33,Tier 2,0.7,0,0,0,0,2.2944444444444443,0,0,0,0,0,0,0,0,No,1.0,1,19445933.44,0.0,19445933.44,0.0,46,0.0,0.0,0.5,,,,No Initial Haircut,
33,"Medina Health, LLC",Comprehensive Rehab Consultants (Term Loan),,10927044.3,10927044.3,No,,No,0.9825,0.989999966413607,Yes,First Lien,Term,NR, NR,1.67829221806206,2.01109696204328,2.25194862386997,0.333470723557189,4.41559411879883,4.41559411879883,3.58876810903313,3.58876810903313,17619373.0462626,21319655.9698067,2024-02-29,2028-10-20,No,0,Yes,0.01,0.0625,0.0531,0.0,0.0,0.0,Quarterly,Health Care Providers & Services,USD,United States,No,No,No,No,No,No,No,No,No,No,0,No,No,No,No,No,No,No,No,Yes,0,30,0,0,0,0,0,0,0,0,0,0,0,0,0,0.0,34,Tier 2,0.7,0,0,0,0,4.3805555555555555,0,0,0,0,0,0,0,0,No,1.0,0,10927044.3,10927044.3,10927044.3,10927044.3,31,10927044.3,0.0,0.5,,,,No Initial Haircut,
34,Michael Baker International. LLC -New Term B Loans,Michael Baker (Term Loan),,8000000.0,8000000.0,No,,No,0.995,1.0025,No,First Lien,Term,NR, NR,1.75407007277365,,,0.278797325154608,3.55221012171685,3.55221012171685,3.55221012171685,3.55221012171685,156100000.0,156100000.0,2024-03-31,2028-12-01,No,0,Yes,0.01,0.055,0.0534,0.0,0.0,0.0,Quarterly,Professional Services,USD,United States,No,No,No,No,No,No,No,No,No,No,0,No,No,No,No,No,No,No,No,Yes,0,31,0,0,0,0,0,0,0,0,0,0,0,0,0,0.0,35,Tier 1,0.7,0,0,0,0,4.497222222222222,0,0,0,0,0,0,0,0,No,1.0,0,8000000.0,8000000.0,8000000.0,8000000.0,55,8000000.0,0.0,0.5,,,,No Initial Haircut,
35,"Anteriad, LLC (f/k/a MeritDirect, LLC)",MeritDirect (Term Loan),,10300161.77,10300161.77,No,,No,0.986559804327238,0.995000241429134,Yes,First Lien,Term,NR, NR,1.25,1.26160234689435,2.00612914135709,0.414000752728641,4.97782604760612,4.97782604760612,4.21870005327651,4.22184912759723,11049000.0,30032000.0,2024-04-30,2026-06-30,No,0,Yes,0.01,0.0575,0.054793,0.0,0.0,0.0,Quarterly,Media,USD,United States,No,No,No,No,No,No,No,No,No,No,0,No,No,No,No,No,No,No,No,Yes,0,32,0,0,0,0,0,0,0,0,0,0,0,0,0,0.0,36,Tier 2,0.6664031818181817,0,0,0,0,2.0388888888888888,0,0,0,0,0,0,0,0,No,1.0,0,10300161.77,10300161.77,10300161.77,10300161.77,46,10300161.77,0.0,0.5,,,,No Initial Haircut,
36,"NORA Acquisition, LLC",NORA (Term Loan),,6447550.13,6447550.13,No,,No,0.98,1.0,Yes,First Lien,Term,NR, NR,1.5643692606758,1.60400632840049,3.18726198703162,0.324776543766278,3.66313227357022,3.67640691217237,3.26840086007461,3.46080347303409,21293252.3793301,22047747.8696891,2024-03-31,2029-08-31,No,0,Yes,0.01,0.0635,0.0533,0.0,0.0,0.0,Quarterly,Health Care Providers & Services,USD,United States,No,No,No,No,No,No,No,No,No,No,0,No,No,No,No,No,No,No,No,Yes,0,33,0,0,0,0,0,0,0,0,0,0,0,0,0,0.0,37,Tier 2,0.7,0,0,0,0,5.2555555555555555,0,0,0,0,0,0,0,0,No,1.0,0,6447550.13,6447550.13,6447550.13,6447550.13,31,6447550.13,0.0,0.5,,,,No Initial Haircut,
37,"Omnia Exterior Solutions, LLC",Omnia (TL),,5200000.0,5200000.0,No,,No,1.0,0.985,No,First Lien,Term,NR, NR,1.88349514563107,1.88349514563107,2.95918367346939,0.192556976934147,2.06896551724138,2.06896551724138,2.06896551724138,2.06896551724138,14500000.0,14500000.0,2023-12-31,2029-12-29,No,0,Yes,0.01,0.055,0.053019,0.0,0.0,0.0,Quarterly,Diversified Consumer Services,USD,United States,No,No,No,No,No,No,No,No,No,No,0,No,No,No,No,No,No,No,No,Yes,0,34,0,0,0,0,0,0,0,0,0,0,0,0,0,0.0,38,Tier 2,0.7,0,0,0,0,5.588888888888889,0,0,0,0,0,0,0,0,No,1.0,0,5200000.0,5200000.0,5200000.0,5200000.0,19,5200000.0,0.0,0.5,,,,No Initial Haircut,
38,"OSP Embedded Purchaser, LLC",Lynx Technologies (TL),,5885250.0,5885250.0,No,,No,0.9825,0.992,No,First Lien,Term,NR, NR,1.87,1.37931034482759,1.71172413793103,0.198,2.81,2.81,3.28827558420629,3.32856567284448,7151620.36080314,4964000.0,2024-02-29,2029-12-15,No,0,Yes,0.01,0.0585,0.0531,0.0,0.0,0.0,Quarterly,Aerospace & Defense,USD,United States,No,No,No,No,No,No,No,No,No,No,0,No,No,No,No,No,No,No,No,Yes,0,35,0,0,0,0,0,0,0,0,0,0,0,0,0,0.0,39,Tier 2,0.7,0,0,0,0,5.55,0,0,0,1,0,0,0,0,No,1.0,0,5885250.0,5885250.0,5885250.0,5885250.0,1,5885250.0,0.0,0.5,,,,No Initial Haircut,2942625.0
39,"Output Services Group, Inc.",OSG (TL1),,521421.96,521421.96,No,,No,1.0,1.0,No,First Lien,Term,Caa1, B,1.3,0.882860665844636,1.38775510204082,0.7434,3.99,5.2,2.51838235294118,3.4375,52980000.0,54400000.0,2024-03-31,2028-11-30,No,0,No,,0.0842826,0.0532174,0.0,0.0,0.0,Monthly,Professional Services,USD,United States,No,No,No,No,No,No,No,No,No,No,0,No,No,No,No,No,No,No,No,Yes,0,36,0,0,0,0,0,0,0,0,0,0,0,0,0,0.0,40,Tier 1,0.7,0,0,0,0,4.4944444444444445,0,0,0,0,0,0,0,0,No,1.0,0,521421.96,521421.96,521421.96,521421.96,55,521421.96,0.0,0.5,,,,No Initial Haircut,
40,"Output Services Group, Inc.",OSG (TL2),,1057680.25,1057680.25,No,,No,1.0,1.0,No,First Lien,Term,Caa1, B,1.3,0.882860665844636,1.38775510204082,0.7434,3.99,5.2,2.51838235294118,3.4375,52980000.0,54400000.0,2024-03-31,2028-05-30,No,0,No,,0.0667826,0.0532174,0.0,0.0,0.0,Monthly,Professional Services,USD,United States,No,No,No,No,No,No,No,No,No,No,0,No,No,No,No,No,No,No,No,Yes,0,36,0,0,0,0,0,0,0,0,0,0,0,0,0,0.0,41,Tier 1,0.7,0,0,0,0,3.9833333333333334,0,0,0,0,0,0,0,0,No,1.0,0,1057680.25,1057680.25,1057680.25,1057680.25,55,1057680.25,0.0,0.5,,,,No Initial Haircut,
41,"Ox Two, LLC (New Issue)",Ox (Term Loan),,11271039.91,11271039.91,No,,No,0.982934557293929,1.0,Yes,First Lien,Term,NR, NR,1.28176605857802,2.00402619644515,2.60997654453836,0.652129917063472,4.5649094194443,4.5649094194443,2.51637524743956,2.51637524743956,12276531.0,20000339.0,2024-04-30,2026-05-18,No,0,Yes,0.01,0.0751,0.0431,0.0,0.0,0.0,Monthly,Construction Materials,USD,United States,No,No,No,No,No,No,No,No,No,No,0,No,No,No,No,No,No,No,No,Yes,0,37,0,0,0,0,0,0,0,0,0,0,0,0,0,0.0,42,Tier 3,0.6566873559498637,0,0,0,0,1.9194444444444445,0,0,0,0,0,0,0,0,No,1.0,0,11271039.91,11271039.91,11271039.91,11271039.91,15,11271039.91,0.0,0.5,,,,No Initial Haircut,
42,"PH Beauty Holdings III, Inc.",Paris Presents,,1750263.19,1750263.19,No,,No,0.9975,0.988999997874117,No,First Lien,Term,B2, CCC+,1.58031048916796,1.24611796211909,1.71317900317649,0.334645669291339,4.5154277113471,5.68609415502968,3.35296863953473,4.2867128203076,59795000.0,74967000.0,2024-03-31,2025-09-28,No,0,Yes,0.01,0.05,0.0572,0.0,0.0,0.0,Monthly,Personal Products,USD,United States,No,No,No,No,No,No,No,No,No,No,0,No,No,No,No,No,No,No,No,Yes,0,38,0,0,0,0,0,0,0,0,0,0,0,0,0,0.0,43,Tier 1,0.7,0,0,0,0,1.275,0,0,0,0,0,0,0,0,No,1.0,0,1750263.19,1750263.19,1750263.19,1750263.19,53,1750263.19,0.0,0.5,,,,No Initial Haircut,
43,"PL Acquisitionco, LLC",Pink Lily (Term Loan),,5547119.45,5547119.45,No,,No,0.98,0.885000170421304,Yes,First Lien,Term,NR, NR,3.22,0.210709516381412,0.465700529555536,0.207697802197802,3.42,3.42,14.8083009096087,14.8083009096087,22128888.0,4280302.0,2024-04-30,2027-11-09,No,0,Yes,0.01,0.071,0.0533,0.0,0.0,0.035,Quarterly,Specialty Retail,USD,United States,No,Yes,No,No,No,No,No,No,No,No,0,No,No,No,No,No,No,No,No,Yes,0,39,0,0,0,0,0,0,0,0,0,0,0,0,0,0.0,44,Tier 2,0.7,0,0,0,0,3.4194444444444443,0,0,0,1,1,0,0,0,No,1.0,0,5547119.45,5547119.45,5547119.45,5547119.45,60,5547119.45,0.0,0.5,,,,No Initial Haircut,2773559.725
44,"Recteq, LLC",Recteq (TL),,1455000.0,1455000.0,No,,No,0.98,0.975,No,First Lien,Term,NR, NR,2.86010787456446,0.730976086577064,0.842696634310079,0.2807,1.64711849754104,3.1691393876739,4.60650152948985,9.67279198238355,23981274.0,9289045.0,2024-04-30,2026-01-29,No,0,Yes,0.01,0.0715,0.0531,0.005,0.0,0.0,Quarterly,Leisure Products,USD,United States,No,No,No,No,No,No,No,No,No,No,0,No,No,No,No,No,No,No,No,Yes,0,40,0,0,0,0,0,0,0,0,0,0,0,0,0,0.0,45,Tier 2,0.7,0,0,0,0,1.6166666666666667,0,0,0,0,1,0,0,0,No,1.0,0,1455000.0,1455000.0,1455000.0,1455000.0,42,1455000.0,0.0,0.5,,,,No Initial Haircut,727500.0
45,"Research Now Group, LLC and Dynata, LLC",Research Now / SSI (1st),,11330590.0,11330590.0,No,,No,0.98210648117673,0.850000005604298,No,First Lien,Term,B2, B-,1.66,0.913888339407283,1.1645284435822,0.8052,3.35960591133005,4.59113300492611,5.36436354202698,6.71553960567278,203000000.0,185024000.0,2024-03-31,2024-12-20,No,0,Yes,0.01,0.0576,0.0531,0.0,0.0,0.0,Monthly,Diversified Consumer Services,USD,United States,No,No,No,No,No,No,No,No,No,No,0,No,No,Yes,Yes,No,No,No,No,Yes,0,41,0,0,0,0,0,0,0,0,0,0,0,0,0,0.0,46,Tier 1,0.7,0,0,0,0,0.49166666666666664,0,0,0,0,0,0,0,0,No,1.0,0,11330590.0,11330590.0,11330590.0,11330590.0,19,11330590.0,0.0,0.5,,,,No Initial Haircut,
46,"RTIC Subsidiary Holdings, LLC",RTIC (TL),,25000000.0,25000000.0,No,,No,0.985,0.985,No,First Lien,Term,NR, NR,0.0,1.3014448163866,1.62967479194369,0.499,3.99,3.99,3.96193096380691,3.96193096380691,31600000.0,28734240.1975151,2024-02-29,2029-05-03,No,0,Yes,0.01,0.0575,0.0532,0.0,0.0,0.0,Monthly,Leisure Products,USD,United States,No,No,No,No,No,No,No,No,No,No,0,No,No,No,No,No,No,No,No,Yes,0,42,0,0,0,0,0,0,0,0,0,0,0,0,0,0.0,47,Tier 2,0.7,0,0,0,0,4.9222222222222225,0,0,0,0,0,0,0,0,No,1.0,0,25000000.0,25000000.0,25000000.0,25000000.0,42,25000000.0,0.0,0.5,,,,No Initial Haircut,
47,Safe Haven Defense US LLC,Safe Haven (Term Loan),,13000000.0,13000000.0,No,,No,0.985,0.985,No,First Lien,Term,NR, NR,1.68550443282481,,,0.388742191620319,3.55355919540874,3.55355919540874,3.55355919540874,3.55355919540874,12963326.9558379,12963326.9558379,2024-03-31,2029-05-23,No,0,Yes,0.01,0.0525,0.053223,0.0,0.0,0.0,Monthly,Construction & Engineering,USD,United States,No,No,No,No,No,No,No,No,No,No,0,No,No,No,No,No,No,No,No,Yes,0,43,0,0,0,0,0,0,0,0,0,0,0,0,0,0.0,48,Tier 2,0.7,0,0,0,0,4.977777777777778,0,0,0,0,0,0,0,0,No,1.0,0,13000000.0,13000000.0,13000000.0,13000000.0,14,13000000.0,0.0,0.5,,,,No Initial Haircut,
48,Sargent & Greenleaf Inc.,Sargent & Greenleaf (Term Loan),,3208098.92,3208098.92,No,,No,0.985,1.0,Yes,First Lien,Term,NR, NR,2.32235850398677,1.39401139934843,1.64948313767627,0.546262028889956,4.24962894922367,4.24962894922367,4.69386831112216,4.69386831112216,21766606.2390925,17316208.0,2024-04-30,2024-12-20,No,0,Yes,0.015,0.076,0.0533,0.0,0.0,0.045,Monthly,"Electronic Equipment, Instruments & Components",USD,United States,No,Yes,No,No,No,No,No,No,No,No,0,No,No,No,No,No,No,No,No,Yes,0,44,0,0,0,0,0,0,0,0,0,0,0,0,0,0.0,49,Tier 2,0.7,0,0,0,0,0.49166666666666664,0,0,0,0,0,0,0,0,No,1.0,0,3208098.92,3208098.92,3208098.92,3208098.92,24,3208098.92,0.0,0.5,,,,No Initial Haircut,
49,Sargent & Greenleaf Inc.,Sargent & Greenleaf (Revolver),,528854.22,348893.11,No,,No,0.985,1.0,Yes,First Lien,Revolver,NR, NR,2.32235850398677,1.39401139934843,1.64948313767627,0.546262028889956,4.24962894922367,4.24962894922367,4.69386831112216,4.69386831112216,21766606.2390925,17316208.0,2024-04-30,2024-12-20,No,0,Yes,0.015,0.076,0.0533,0.005,0.0,0.045,Monthly,"Electronic Equipment, Instruments & Components",USD,United States,No,Yes,No,No,No,No,No,No,No,No,0,No,No,No,No,No,No,No,No,Yes,0,44,0,0,0,0,0,0,0,0,0,0,0,0,0,0.0,50,Tier 2,0.7,0,0,0,0,0.49166666666666664,0,0,0,0,0,0,0,0,No,1.0,0,528854.22,528854.22,348893.11,348893.11,24,348893.11,0.0,0.5,,,,No Initial Haircut,
50,"Schlesinger Global, Inc.",Schlesinger (Term Loan),,7812661.7977,7812661.7977,No,,No,0.994864750180174,0.980000097939188,Yes,First Lien,Term,NR, NR,1.64,0.840342544412625,1.15381392249664,0.591690420661657,4.55006767247894,4.55006767247894,5.93482270911472,6.4442879240879,15054721.1449891,26914497.0,2024-03-31,2025-07-14,No,0,Yes,0.01,0.0825,0.0543,0.0,0.0,0.005,Quarterly,Diversified Consumer Services,USD,United States,No,Yes,No,No,No,No,No,No,No,No,0,No,No,No,No,No,No,No,No,Yes,0,45,0,0,0,0,0,0,0,0,0,0,0,0,0,0.0,51,Tier 2,0.6961486978592382,0,0,0,0,1.0638888888888889,0,0,0,0,0,0,1,0,No,1.0,0,7812661.7977,7812661.7977,7812661.7977,7812661.7977,19,7812661.7977,0.0,0.5,,,,0.8,6250129.43816
51,"Seaway Buyer, LLC",Seaway (TL),,1910900.0,1910900.0,No,,No,0.985,0.97,No,First Lien,Term,NR, NR,2.01,0.950933501061192,1.29748470483687,0.334,4.96,4.96,6.24963141535745,6.24963141535745,7800000.0,9233293.0,2024-03-31,2029-06-13,No,0,Yes,0.01,0.0615,0.0531,0.005,0.0,0.0,Quarterly,Chemicals,USD,United States,No,No,No,No,No,No,No,No,No,No,0,No,No,No,No,No,No,No,No,Yes,0,46,0,0,0,0,0,0,0,0,0,0,0,0,0,0.0,52,Tier 2,0.7,0,0,0,0,5.036111111111111,0,0,0,0,0,1,0,0,No,1.0,0,1910900.0,1910900.0,1910900.0,1910900.0,11,1910900.0,0.0,0.5,,,,0.65,1242085.0
52,"Sigma Defense Systems, LLC",Sigma Defense (Term Loan),,9923461.42,9923461.42,No,,No,0.9927861,0.98999997522034,Yes,First Lien,Term,NR, NR,1.28,1.38438312622265,1.79969806973796,0.7,6.05,6.3,4.06650763358779,5.77159669211196,17810000.0,31440000.0,2024-04-30,2027-12-18,No,0,Yes,0.01,0.0715,0.0531,0.005,0.0,0.0,Quarterly,IT Services,USD,United States,No,No,No,No,No,No,No,No,No,No,0,No,No,No,No,No,No,No,No,Yes,0,47,0,0,0,0,0,0,0,0,0,0,0,0,0,0.0,53,Tier 3,0.5814049586776859,0,0,0,0,3.5277777777777777,0,0,0,0,0,0,1,0,No,1.0,0,9923461.42,9923461.42,9923461.42,9923461.42,41,9923461.42,0.0,0.5,,,,0.8,7938769.136
53,Simplicity Financial Marketing Group Holdings Inc.,Simplicity Group (TL),,974353.63,974353.63,No,,No,1.0,0.989999831991184,Yes,First Lien,Term,NR, NR,1.48049776203827,1.52797059238106,1.8473311851855,0.611424418712436,4.79369186046512,4.79369186046512,4.6644904069569,4.6644904069569,103200000.0,125429792.786667,2024-04-30,2026-12-02,No,0,Yes,0.01,0.0625,0.054519,0.0,0.0,0.0,Quarterly,Diversified Financial Services,USD,United States,No,No,No,No,No,No,No,No,No,No,0,No,No,No,No,No,No,No,No,Yes,0,48,0,0,0,0,0,0,0,0,0,0,0,0,0,0.0,54,Tier 1,0.6785567879298736,0,0,0,0,2.4694444444444446,0,0,0,0,0,0,0,0,No,1.0,0,974353.63,974353.63,974353.63,974353.63,20,974353.63,0.0,0.5,,,,No Initial Haircut,
54,Smile Brands Inc.,Smile Brands (TL),,2363369.88,2363369.88,No,,No,1.0,0.891999991752067,No,First Lien,Term,NR, NR,1.91,0.806251421281502,1.04457310807377,0.5186,4.42,6.64,7.14409088461746,12.8397027943789,46356000.0,92865000.0,2024-03-31,2025-10-14,No,0,No,,0.055,0.0535,0.0,0.0,0.0,Quarterly,Health Care Providers & Services,USD,United States,No,No,No,No,No,No,No,No,No,No,0,No,No,No,No,No,No,No,No,Yes,0,49,0,0,0,0,0,0,0,0,0,0,0,0,0,0.0,55,Tier 2,0.7,0,0,0,0,1.3194444444444444,0,0,0,0,1,0,0,0,No,1.0,0,2363369.88,2363369.88,2363369.88,2363369.88,31,2363369.88,0.0,0.5,,,,No Initial Haircut,1181684.94
55,"S101 Holdings, Inc.",Security 101 (TL),,4870066.72,4870066.72,No,,No,0.989798352928161,0.98999998094482,No,First Lien,Revolver,NR, NR,1.5526896317665,2.22293585234117,2.78091772682669,0.570479700527086,4.03,4.03,3.38616245579902,3.38616245579902,23600000.0,27670553.4696181,2024-04-30,2026-12-29,No,0,Yes,0.01,0.0615,0.053019,0.0,0.0,0.0,Quarterly,"Electronic Equipment, Instruments & Components",USD,United States,No,No,No,No,No,No,No,No,No,No,0,No,No,No,No,No,No,No,No,Yes,0,50,0,0,0,0,0,0,0,0,0,0,0,0,0,0.0,56,Tier 2,0.7,0,0,0,0,2.5444444444444443,0,0,0,0,0,0,0,0,No,1.0,0,4870066.72,4870066.72,4870066.72,4870066.72,24,4870066.72,0.0,0.5,,,,No Initial Haircut,
56,"TPC US Parent, LLC",Targeted Pet Care (Term Loan),,161042.17,161042.17,No,,No,0.985,0.999000013474732,No,First Lien,Term,NR, NR,1.31000441233684,1.71692135020473,2.4084137196226,0.601174645390071,4.00418983764962,5.49942528335423,4.40264290634289,5.25562679872658,19729334.3230628,36914479.1279966,2024-03-31,2025-11-24,No,0,Yes,0.01,0.0565,0.052982,0.0,0.0,0.0,Quarterly,Household Products,USD,Canada,No,No,No,No,No,No,No,No,No,No,0,No,No,No,No,No,No,No,No,Yes,0,51,0,0,0,0,0,0,0,0,0,0,0,0,0,0.0,57,Tier 2,0.7,0,0,0,0,1.4333333333333333,0,0,0,0,0,0,0,0,No,1.0,0,161042.17,161042.17,161042.17,161042.17,35,161042.17,0.0,0.5,,,,No Initial Haircut,
57,"TransGo, LLC",TransGo (TL),,5774164.39,5774164.39,No,,No,0.985,0.990000000675423,No,First Lien,Term,NR, NR,1.52525501913402,3.27950553736285,4.20377603005532,0.596379632210083,4.70473166484911,4.70473166484911,4.38820857187652,4.38820857187652,17036040.673442,17901838.2360998,2024-04-30,2028-12-29,No,0,Yes,0.01,0.06,0.0533,0.0,0.0,0.0,Monthly,Auto Components,USD,United States,No,No,No,No,No,No,No,No,No,No,0,No,No,No,No,No,No,No,No,Yes,0,52,0,0,0,0,0,0,0,0,0,0,0,0,0,0.0,58,Tier 2,0.7,0,0,0,0,4.575,0,0,0,0,0,0,0,0,No,1.0,0,5774164.39,5774164.39,5774164.39,5774164.39,4,5774164.39,0.0,0.5,,,,No Initial Haircut,
58,Amsive Holding Corporation (f/k/a Vision Purchaser Corporation),Vision Integrated (TL),,2101484.19,2101484.19,No,,No,0.98,0.987499972123643,No,First Lien,Term,NR, NR,1.65,0.786885565204711,1.33994462755249,0.701280227596017,3.37630224215387,4.4444754842748,3.90132144416839,5.67579345587079,21719323.313075,39730127.9113236,2024-02-29,2025-06-10,No,0,Yes,0.01,0.064,0.0533,0.0,0.0,0.0,Quarterly,Media,USD,United States,No,No,No,No,No,No,No,No,No,No,0,No,No,No,No,No,No,No,No,Yes,0,53,0,0,0,0,0,0,0,0,0,0,0,0,0,0.0,59,Tier 2,0.7,0,0,0,0,0.9694444444444444,0,0,0,0,0,0,0,0,No,1.0,0,2101484.19,2101484.19,2101484.19,2101484.19,46,2101484.19,0.0,0.5,,,,No Initial Haircut,
59,"Walker Edison Furniture, LLC",Walker Edison (TL),,1875000.0,1875000.0,Yes,2022-12-30,No,1.0,0.74000002039576,Yes,Second Lien,Term,NR, NR,2.60448818897638,,,0.33002358653567,3.52148000443115,3.52148000443115,-7.93232585564719,-7.93232585564719,90270000.0,-22043882.53825,2024-03-31,2029-03-01,No,0,Yes,0.01,0.0575,0.0,0.0,0.114242,0.03,Quarterly,Household Products,USD,United States,No,Yes,No,No,No,No,No,No,No,No,0,No,No,No,No,No,No,No,No,Yes,0,54,0,0,0,0,0,1,0,0,0,0,0,0,0,0.0,60,Tier 1,0.35,0,0,0,1,4.747222222222222,0,0,0,1,0,0,0,0,No,1.0,0,1875000.0,1875000.0,1875000.0,0.0,35,0.0,18.133333333333333,0.3,0,,,No Initial Haircut,
60,"Watchtower Intermediate, LLC",Watchtower (TL),,2100000.0,2100000.0,No,,No,0.988824,0.992,No,First Lien,Term,NR, NR,0.49,0.409966587050043,1.65357678615569,0.428355692773109,5.05587181988946,5.05587181988946,4.98800001297173,4.98800001297173,10087281.05,10324035.5605612,2024-04-30,2029-12-01,No,0,Yes,0.01,0.06,0.053094,0.0,0.0,0.0,Quarterly,Professional Services,USD,United States,No,No,No,No,No,No,No,No,No,No,0,No,No,No,No,No,No,No,No,Yes,0,55,0,0,0,0,0,0,0,0,0,0,0,0,0,0.0,61,Tier 3,0.7,0,0,0,0,5.511111111111111,0,0,0,0,0,0,1,0,No,1.0,0,2100000.0,2100000.0,2100000.0,2100000.0,55,2100000.0,0.0,0.5,,,,0.8,1680000.0
61,"Zips Car Wash, LLC",Zips (DDTL),,8337465.4302,8337465.4302,No,,No,0.991275165406049,0.977500065754352,Yes,First Lien,Delayed Draw,NR, NR,1.0139645339404,0.67436067876001,0.932290765664464,0.574654893257403,4.64895808645239,5.228582888188,8.3151423773275,8.3151423773275,54851000.0,81579000.0,2024-03-31,2024-12-31,No,0,Yes,0.01,0.0735,0.0533,0.0,0.0,0.015,Quarterly,Automobiles,USD,United States,No,Yes,No,No,No,No,No,No,No,No,0,No,No,No,No,No,No,No,No,Yes,0,56,0,0,0,0,0,0,0,0,0,0,0,0,0,0.0,62,Tier 1,0.688785588235294,0,0,0,0,0.5222222222222223,0,0,0,0,1,0,0,0,No,1.0,0,8337465.4302,8337465.4302,8337465.4302,8337465.4302,5,8337465.4302,0.0,0.5,,,,No Initial Haircut,4168732.7151
62,"Infolinks Media Buyco, LLC",Infolinks (TL),,2629885.1766,2629885.1766,No,,No,0.985,0.985,Yes,First Lien,Term,NR, NR,2.85123354510486,2.89629297878517,3.36454369871071,0.410182234919234,4.0,4.0,2.37810864408968,2.37810864408968,25840000.0,40887983.26,2024-03-31,2029-03-01,No,0,Yes,0.01,0.0735,0.0533,0.0,0.0,0.0,Quarterly,Media,USD,United States,No,No,No,No,No,No,No,No,No,No,0,No,No,No,No,No,No,No,No,Yes,0,57,0,0,0,0,0,0,0,0,0,0,0,0,0,0.0,63,Tier 2,0.7,0,0,0,0,4.747222222222222,0,0,0,0,0,0,0,0,No,1.0,0,2629885.1766,2629885.1766,2629885.1766,2629885.1766,46,2629885.1766,0.0,0.5,,,,No Initial Haircut,
63,"PlayPower, Inc.",PlayPower (Term Loan),,5608647.6566,5608647.6566,No,,No,0.98875,0.98875,Yes,First Lien,Term,B3, B,1.65884861407249,1.1330769534975,1.568116274184,0.862,4.50057803468208,4.50057803468208,4.96304731745935,4.96304731745935,86500000.0,82105000.0,2024-03-31,2029-03-01,No,0,Yes,0.01,0.0735,0.0533,0.0,0.0,0.0,Quarterly,Leisure Products,USD,United States,No,No,No,No,No,No,No,No,No,No,0,No,No,Yes,Yes,No,No,No,No,Yes,0,58,0,0,0,0,0,0,0,0,0,0,0,0,0,0.0,64,Tier 1,0.699955047521192,0,0,0,0,4.747222222222222,0,0,0,0,0,0,0,0,No,1.0,0,5608647.6566,5608647.6566,5608647.6566,5608647.6566,42,5608647.6566,0.0,0.5,,,,No Initial Haircut,
64,BEACON BEHAVIORAL SUPPORT SERVICES,Beacon (Term Loan),,14972236.4466,14972236.4466,No,,No,0.985,0.985,No,First Lien,Term,NR, NR,1.87743812470169,,,0.431807477382397,3.5577126278661,3.5577126278661,3.5577126278661,3.5577126278661,16872357.6856189,16872357.6856189,2024-04-30,2029-06-21,No,0,Yes,0.01,0.0735,0.0533,0.0,0.0,0.0,Quarterly,Health Care Providers & Services,USD,United States,No,No,No,No,No,No,No,No,No,No,0,No,No,No,No,No,No,No,No,Yes,0,59,0,0,0,0,0,0,0,0,0,0,0,0,0,0.0,65,Tier 2,0.7,0,0,0,0,5.058333333333334,0,0,0,0,0,0,0,0,No,1.0,0,14972236.4466,14972236.4466,14972236.4466,14972236.4466,31,14972236.4466,0.0,0.5,,,,No Initial Haircut,
65,Health E-commerce,HEC (Term Loan),,5972236.4466,5972236.4466,No,,No,0.9875,0.9875,No,First Lien,Term,NR, NR,1.3489932885906,,,0.544829857299671,4.80800526968382,4.80800526968382,4.80800526968382,4.80800526968382,51600000.0,51616000.0,2024-03-31,2029-03-01,No,0,Yes,0.01,0.0735,0.0533,0.0,0.0,0.0,Quarterly,Health Care Providers & Services,USD,United States,No,No,No,No,No,No,No,No,No,No,0,No,No,No,No,No,No,No,No,Yes,0,60,0,0,0,0,0,0,0,0,0,0,0,0,0,0.0,66,Tier 1,0.7,0,0,0,0,4.747222222222222,0,0,0,0,0,0,0,0,No,1.0,0,5972236.4466,5972236.4466,5972236.4466,5972236.4466,31,5972236.4466,0.0,0.5,,,,No Initial Haircut,
66,TPCN MIDCO,TPCN (Term Loan),,5312236.4466,5312236.4466,No,,No,0.985,0.985,No,First Lien,Term,NR, NR,1.75309437700101,,,0.328029856609703,2.47935062722575,2.47935062722575,2.47935062722575,2.47935062722575,6735634.6523228,6735634.6523228,2024-04-30,2029-06-26,No,0,Yes,0.01,0.0735,0.0533,0.0,0.0,0.0,Quarterly,Diversified Consumer Services,USD,United States,No,No,No,No,No,No,No,No,No,No,0,No,No,No,No,No,No,No,No,Yes,0,61,0,0,0,0,0,0,0,0,0,0,0,0,0,0.0,67,Tier 2,0.7,0,0,0,0,5.072222222222222,0,0,0,0,0,0,0,0,No,1.0,0,5312236.4466,5312236.4466,5312236.4466,5312236.4466,19,5312236.4466,0.0,0.5,,,,No Initial Haircut,
67,QuantiTech LLC,QuantiTech (Second Lien),,150000.0,150000.0,No,,No,0.98,1.0,No,Second Lien,Term,NR, NR,4.19628057939331,1.49018337113994,1.6808801090097,0.445175438596491,2.69791666666667,4.4375,3.14404835816271,5.02741436582871,48000000.0,44335514.0,2024-04-30,2027-02-04,No,0,Yes,0.01,0.1,0.0542,0.0,0.0,0.0,Quarterly,Aerospace & Defense,USD,United States,No,No,No,No,No,No,No,No,No,No,0,No,No,No,No,No,No,No,No,Yes,0,62,0,0,0,0,0,0,0,0,0,0,0,0,0,0.0,68,Tier 2,0.35,0,0,0,0,2.647222222222222,0,0,0,0,0,0,0,0,No,1.0,0,150000.0,150000.0,150000.0,150000.0,1,150000.0,0.0,0.3,,,,No Initial Haircut,
68,"Output Services Group, Inc. (Common Equity)",OSG (Common Equity),,80170.0,80170.0,No,,No,0.0,0.0841000374204815,No,Ineligible,Ineligible,NR, NR,1.3,0.882860665844636,1.38775510204082,0.7434,3.99,5.2,2.51838235294118,3.4375,52980000.0,54400000.0,2024-03-31,,No,0,,,0.0,,0.0,0.0,0.0,Quarterly,Professional Services,USD,United States,No,No,No,No,No,No,No,No,No,No,0,No,No,No,No,No,No,No,No,Yes,0,63,0,0,0,0,0,0,0,0,0,0,0,0,0,0.0,69,Tier 1,0.35,0,0,0,0,,0,0,0,0,0,0,0,0,Yes,1.0,1,80170.0,0.0,80170.0,0.0,55,0.0,0.0,0.3,,0.0,,No Initial Haircut,
69,"Walker Edison Furniture, LLC",Walker Edison (Common),,21875.0,21875.0,Yes,,No,0.0,0.0,No,Ineligible,Ineligible,NR, NR,2.60448818897638,,,0.33002358653567,3.52148000443115,3.52148000443115,-7.93232585564719,-7.93232585564719,90270000.0,-22043882.53825,2024-03-31,,No,1,,,1.0,,0.0,0.0,0.0,Quarterly,Household Products,USD,United States,No,Yes,No,No,No,No,Yes,No,No,No,0,No,No,No,No,No,No,No,No,Yes,0,54,0,1,0,0,0,0,0,0,0,0,0,0,0,0.0,70,Tier 1,0.35,0,0,0,0,,0,0,0,1,0,0,0,0,Yes,1.0,1,21875.0,0.0,21875.0,0.0,35,0.0,0.0,0.3,0.0,0.0,,No Initial Haircut,0.0
